#string ID
methane [CH4], liquid, 111K

#Martonchik & Orton, 1994, Appl. Opt. 33, 8306

#nr. of wavelength #inc. angles #aspect ratio #density [kg/m^3] #sub.temp #delta  #align
42     1     1     420     0     1     0

#wavelength    real refractive index    imaginary refractive index
5.450e-08     8.640e-01     2.004e-01
9.000e-08     1.196e+00     6.096e-01
1.000e-07     1.420e+00     4.551e-01
1.012e-07     1.417e+00     4.472e-01
1.087e-07     1.476e+00     3.527e-01
1.162e-07     1.442e+00     3.024e-01
1.200e-07     1.455e+00     3.128e-01
1.337e-07     1.659e+00     1.702e-01
4.000e-07     1.280e+00     1.000e-10
5.831e-07     1.273e+00     1.160e-09
5.983e-07     1.273e+00     1.095e-09
6.215e-07     1.272e+00     1.830e-07
6.696e-07     1.272e+00     4.476e-09
6.856e-07     1.271e+00     2.510e-09
7.057e-07     1.271e+00     7.862e-09
7.174e-07     1.271e+00     1.085e-07
7.299e-07     1.271e+00     9.294e-08
7.849e-07     1.270e+00     3.748e-08
7.994e-07     1.270e+00     5.725e-08
8.418e-07     1.270e+00     4.689e-08
8.673e-07     1.270e+00     3.106e-07
8.885e-07     1.270e+00     1.782e-06
9.742e-07     1.269e+00     4.651e-07
9.872e-07     1.269e+00     5.892e-07
1.000e-06     1.269e+00     7.799e-07
1.014e-06     1.269e+00     9.438e-07
1.235e-06     1.268e+00     1.573e-07
1.241e-06     1.268e+00     7.903e-08
1.932e-06     1.267e+00     1.476e-06
1.953e-06     1.267e+00     8.393e-07
3.290e-06     1.227e+00     3.000e-02
3.330e-06     1.260e+00     7.000e-02
3.370e-06     1.291e+00     3.500e-02
3.430e-06     1.281e+00     2.000e-02
3.570e-06     1.284e+00     1.000e-02
7.590e-06     1.182e+00     7.249e-02
7.690e-06     1.258e+00     1.600e-01
7.800e-06     1.342e+00     7.499e-02
8.130e-06     1.305e+00     2.002e-02
8.260e-06     1.310e+00     1.001e-02
4.167e-05     1.272e+00     6.234e-04
7.143e-05     1.273e+00     1.353e-03
